File: data/raman_scores/TiO2_map.csv
,-235.075,-233.08,-231.085,-229.09,-227.095,-225.1,-223.104,-221.109,-219.114,-217.119,-215.124,-213.129,-211.133,-209.138,-207.143,-205.148,-203.153,-201.158,-199.163,-197.167,-195.172,-193.177,-191.182,-189.187,-187.192,-185.196,-183.201,-181.206,-179.211,-177.216,-175.221,-173.225,-171.23,-169.235,-167.24,-165.245,-163.25,-161.254,-159.259,-157.264,-155.269,-153.274,-151.279,-149.283,-147.288,-145.293,-143.298,-141.303,-139.308,-137.312,-135.317,-133.322,-131.327,-129.332,-127.337,-125.341,-123.346,-121.351,-119.356,-117.361,-115.366,-113.37,-111.375,-109.38,-107.385,-105.39,-103.395,-101.4,-99.4044,-97.4092,-95.414,-93.4189,-91.4237,-89.4285,-87.4334,-85.4382,-83.443,-81.4479,-79.4527,-77.4576,-75.4624,-73.4672,-71.4721,-69.4769,-67.4817,-65.4866,-63.4914,-61.4963,-59.5011,-57.5059,-55.5108,-53.5156,-51.5204,-49.5253,-47.5301,-45.5349,-43.5398,-41.5446,-39.5495,-37.5543,-35.5591,-33.564,-31.5688,-29.5736,-27.5785,-25.5833,-23.5882,-21.593,-19.5978,-17.6027,-15.6075,-13.6123,-11.6172,-9.62201,-7.62685,-5.63169,-3.63652,-1.64136,0.353804,2.34897,4.34413,6.33929,8.33446,10.3296,12.3248,14.3199,16.3151,18.3103,20.3054,22.3006,24.2958,26.2909,28.2861,30.2813,32.2764,34.2716,36.2667,38.2619,40.2571,42.2522,44.2474,46.2426,48.2377,50.2329,52.228,54.2232,56.2184,58.2135,60.2087,62.2039,64.199,66.1942,68.1893,70.1845,72.1797,74.1748,76.17,78.1652,80.1603,82.1555,84.1507,86.1458,88.141,90.1361,92.1313,94.1265,96.1216,98.1168,100.112,102.107,104.102,106.097,108.093,110.088,112.083,114.078,116.073,118.068,120.064,122.059,124.054,126.049,128.044,130.039,132.035,134.03,136.025,138.02,140.015,142.01,144.006,146.001,147.996,149.991,151.986,153.981,155.977,157.972,159.967
-308.853,256,188,197,209,211,197,215,206,202,271,266,238,220,210,236,235,236,258,234,195,197,211,200,223,200,229,275,335,352,351,273,271,261,252,240,219,214,202,246,256,264,274,280,281,274,252,240,243,247,289,288,290,274,260,230,205,221,224,221,220,447,3930,8927,8794,619,302,245,212,196,177,243,290,287,295,262,213,266,264,256,264,266,302,282,323,284,246,225,223,207,209,189,163,148,140,145,156,138,161,201,227,228,242,232,200,199,269,256,224,212,178,124,250,111,105,106,98,100,130,178,195,296,407,295,359,361,302,214,225,231,230,223,224,212,258,250,247,405,771,240,112,92,82,113,118,120,215,195,208,208,289,1006,605,198,183,177,151,145,172,173,262,249,226,1438,3729,5766,8918,7221,4258,917,194,199,216,200,234,197,170,150,120,94,121,128,129,147,150,164,188,201,201,201,177,159,158,149,138,141,137,150,147,167
-296.857,259,239,219,240,266,273,279,309,321,320,293,271,253,256,244,216,206,208,246,238,239,240,245,266,256,348,390,349,274,245,216,198,190,192,196,193,208,208,230,229,259,262,255,295,329,320,305,291,300,288,282,257,229,221,198,196,203,204,492,849,3701,5855,4641,1922,306,293,293,261,292,284,258,233,216,192,216,208,235,297,303,343,339,317,279,264,256,234,246,245,225,211,222,204,246,192,190,189,185,206,225,237,230,215,189,169,204,252,181,190,185,123,115,133,120,125,136,128,136,126,128,130,148,127,142,135,129,137,119,122,127,147,160,240,155,215,240,233,236,222,213,330,866,450,724,217,337,434,392,359,329,155,101,112,128,178,169,164,136,153,180,223,201,614,1431,6014,8040,7032,4032,345,200,182,175,180,199,218,230,198,179,150,144,159,120,136,157,175,193,211,209,199,197,200,189,189,202,189,192,191,197,196,220
-284.86,256,252,232,234,239,249,236,249,282,287,265,242,255,269,266,242,231,278,291,302,277,274,258,255,271,277,265,228,187,191,171,189,181,175,156,187,210,221,242,248,239,249,233,255,285,247,214,214,221,166,172,219,241,234,177,204,366,1932,2854,4535,3850,2018,2022,1436,205,214,197,179,160,135,107,89,142,413,250,248,244,230,250,251,262,244,214,214,221,262,296,280,254,234,221,212,212,213,232,241,230,271,279,293,277,252,220,234,216,208,150,197,98,115,125,129,129,243,226,212,166,155,134,135,143,126,122,123,125,121,118,130,125,126,119,113,112,106,119,200,219,278,295,325,334,251,268,308,246,371,1513,2092,4846,6181,5823,3743,1034,204,170,162,173,181,181,168,170,192,531,1284,3662,3537,1119,146,144,133,169,158,140,174,218,213,211,178,173,164,164,177,170,169,149,176,175,158,156,166,169,168,170,134,95,108,171,192,212
-272.864,215,187,191,205,213,240,228,216,227,266,272,218,200,180,188,207,204,202,215,230,237,223,214,230,239,202,221,211,217,193,177,175,204,185,183,172,192,207,197,236,380,243,248,231,208,225,188,191,184,182,200,185,188,190,208,213,266,331,455,1254,2842,3966,4973,4800,2085,1110,354,256,228,250,230,241,223,234,214,225,232,250,232,224,226,228,217,228,252,278,277,232,245,394,307,269,193,197,166,172,189,172,157,177,190,208,235,246,266,292,278,235,210,109,147,156,168,158,181,193,200,192,177,177,156,146,114,128,111,133,117,107,110,118,93,117,134,141,143,151,160,165,140,118,151,187,241,321,325,278,227,224,224,247,234,255,220,157,171,163,163,168,171,206,193,224,802,1877,3856,5083,6266,3793,1427,223,212,195,197,158,223,213,204,179,152,159,180,203,296,335,331,286,285,267,243,265,184,199,197,195,192,177,172,169,165
-260.867,319,298,326,301,337,307,307,260,265,246,241,219,220,210,207,197,184,178,199,188,178,176,196,177,197,208,192,192,196,222,235,258,230,219,185,173,189,183,187,204,198,204,203,201,207,201,209,212,226,223,214,209,180,194,195,199,500,1361,1984,5060,5586,3363,1321,247,216,201,191,205,224,296,249,258,254,235,235,230,250,280,304,337,301,322,321,260,234,247,229,229,219,240,243,252,276,272,217,155,167,220,189,202,214,232,258,272,300,336,313,297,323,329,384,383,247,228,249,218,198,236,222,198,170,173,150,144,142,148,156,158,142,155,140,132,136,111,160,123,153,162,139,132,111,104,145,256,165,260,330,302,279,234,238,221,221,226,221,193,174,172,195,219,208,193,279,1202,1490,1119,1193,676,232,229,218,229,197,210,214,232,265,274,291,298,199,252,196,212,181,174,190,177,194,189,165,225,191,211,230,209,186,174,161
-248.871,288,282,297,269,272,242,192,205,211,194,196,187,191,202,212,218,216,226,212,200,219,197,203,221,230,226,241,223,244,230,264,271,261,262,268,271,276,286,284,295,267,240,223,255,261,294,297,288,286,251,224,218,192,213,231,371,693,563,646,1144,815,451,206,152,174,201,200,211,234,270,297,303,290,289,261,293,296,288,294,336,308,308,362,296,273,287,272,275,312,332,337,308,252,230,218,253,271,264,231,255,224,237,272,263,257,307,307,286,266,230,183,183,166,248,217,217,255,261,269,240,233,242,329,250,251,183,207,191,172,245,393,298,252,240,203,227,215,306,218,222,219,246,258,299,337,282,248,235,268,249,226,193,163,160,185,197,204,202,211,239,234,221,440,1256,2743,3254,3273,3728,1763,261,215,225,224,262,226,191,222,169,183,164,149,157,142,136,119,125,150,129,136,146,161,152,156,166,167,156,165,172,203
-236.874,352,219,332,231,231,264,256,300,266,256,223,213,203,218,175,267,211,192,202,184,204,199,197,177,425,200,223,196,210,220,234,287,274,259,208,209,207,238,261,248,276,298,323,270,260,236,209,193,185,162,197,236,211,226,236,464,1214,2803,4054,4751,5146,3836,3699,176,206,216,232,259,268,264,400,1193,2144,1109,238,262,274,317,274,283,265,247,261,311,390,283,265,279,316,335,340,328,336,326,249,254,223,226,268,290,290,246,210,220,189,218,268,289,271,495,176,165,197,132,174,151,164,210,164,177,182,223,252,310,231,185,203,198,203,186,160,268,762,684,240,230,170,184,286,305,282,270,192,261,178,108,136,119,107,137,136,194,216,232,252,1681,8386,9275,6990,2086,343,417,963,3231,3599,2270,1441,168,140,134,149,175,182,201,196,209,193,190,193,181,132,102,128,136,146,148,168,155,161,177,167,181,189,196,203,193,179,181,180
-224.878,349,342,315,299,294,276,246,229,207,186,181,646,830,238,226,175,170,178,193,189,204,213,228,228,210,443,397,230,232,289,246,241,267,294,235,197,189,250,299,296,255,250,180,173,181,194,196,200,220,216,251,234,201,210,209,427,1866,2447,2870,2802,1199,859,724,625,575,2688,5387,1068,298,247,256,234,225,156,237,300,248,225,201,180,279,299,274,219,221,230,263,279,273,278,272,304,284,339,385,320,244,211,260,337,296,299,296,273,254,197,193,187,245,298,296,532,191,207,283,333,304,238,196,189,201,207,238,216,211,221,218,232,221,232,239,315,230,233,204,160,154,158,223,552,177,113,119,118,138,143,125,99,139,150,363,1114,1876,1024,728,2312,3459,3096,1061,241,182,539,1735,7307,14490,11517,5549,1085,168,161,187,177,181,171,161,178,159,159,159,132,109,78,113,124,122,124,168,102,95,110,119,115,132,167,171,189,196,181,194
-212.881,283,287,276,276,228,211,232,225,226,250,243,250,245,243,209,152,146,443,1044,1184,204,187,179,184,217,210,225,231,221,244,220,1748,4616,4808,1404,2273,2200,3247,3008,1107,743,625,2935,5292,2852,2458,3511,3606,1969,1300,2711,2685,3091,4177,2152,1214,1288,1255,302,222,296,495,245,452,1124,1669,1863,1509,847,239,211,199,192,171,116,157,173,171,182,160,197,210,219,211,206,267,343,361,361,282,260,256,231,217,202,231,198,234,268,323,355,312,305,317,290,316,309,307,256,227,199,249,292,294,160,159,216,208,201,227,225,210,220,211,329,235,269,201,201,153,225,280,298,325,328,330,363,317,261,297,158,189,201,200,184,137,221,192,175,232,303,277,194,196,233,198,191,192,196,187,174,193,515,470,235,205,334,264,180,299,403,181,213,155,264,329,197,260,608,1813,1509,1028,479,447,389,622,199,1161,572,202,363,339,169,295,192,103,104,104,117
-200.885,268,279,257,267,234,250,192,226,255,290,260,270,269,265,312,246,230,221,208,222,233,209,229,236,195,177,237,248,225,236,238,241,218,266,311,333,366,339,348,354,297,257,245,264,278,279,269,253,244,216,199,232,188,181,152,166,215,259,288,287,278,255,267,262,262,349,280,202,212,428,231,284,110,120,144,137,143,150,155,169,186,184,181,194,196,215,231,240,266,276,260,216,251,327,315,288,261,1059,243,237,241,278,274,308,370,369,342,273,256,275,267,230,235,222,264,290,311,314,277,268,225,225,208,241,265,286,305,313,308,328,314,306,296,262,312,321,326,319,332,329,317,315,318,321,351,296,266,250,289,248,222,187,208,262,238,158,135,205,247,231,283,271,256,339,1983,827,1105,390,1436,1260,243,204,264,395,382,869,8922,8117,3666,548,1525,1183,805,222,182,176,165,229,1101,2637,819,809,1222,1338,4195,1412,3417,3736,1146
-188.888,396,345,234,221,227,363,640,704,231,214,224,193,200,208,237,250,237,616,4799,249,97,161,196,203,206,224,223,222,217,226,241,243,245,283,355,393,470,489,469,394,305,266,242,189,230,212,219,230,211,195,187,197,195,208,219,248,259,275,281,328,334,347,318,307,272,221,187,166,153,109,151,154,153,150,156,160,156,150,169,168,166,166,158,164,198,201,217,217,236,239,266,229,207,139,206,230,242,235,264,229,272,271,258,258,297,257,325,377,416,375,296,248,264,280,307,325,286,285,275,238,237,233,242,226,265,318,317,317,317,291,270,280,292,291,288,308,290,268,261,268,277,266,260,262,272,259,240,246,254,271,255,212,195,144,202,227,238,235,238,256,273,266,276,292,258,356,380,381,532,934,1345,931,451,311,277,286,165,160,223,3214,3662,1740,238,136,146,186,172,192,194,209,204,205,231,235,231,212,194,177,151
-176.892,311,292,510,1055,425,282,320,281,245,216,202,203,194,224,257,278,282,260,346,234,193,194,175,197,184,207,196,221,241,256,271,251,253,293,326,307,309,291,262,243,188,316,236,293,320,260,267,222,226,223,237,241,225,238,274,296,316,346,351,340,349,370,425,480,511,271,226,193,239,160,194,139,168,193,175,180,165,186,171,186,176,160,164,172,197,208,201,197,201,204,236,246,257,294,292,264,228,252,245,221,298,325,292,270,262,228,223,221,228,248,260,283,344,341,339,313,308,321,315,306,291,291,285,285,272,257,250,242,247,248,276,250,275,273,266,308,340,331,339,333,369,281,243,229,222,213,229,230,267,269,267,256,261,258,240,221,244,226,221,256,250,235,249,263,256,332,291,287,360,354,375,384,363,326,326,333,353,350,295,303,308,302,298,268,261,232,236,235,248,245,243,310,273,271,270,276,300,283,303
-164.895,286,289,265,279,300,289,309,269,225,224,194,205,215,249,259,247,263,273,264,259,208,201,190,211,226,228,240,276,254,246,247,261,271,274,262,284,320,320,326,284,232,233,211,240,262,266,256,280,276,268,278,274,292,312,242,222,218,212,261,237,238,271,242,315,350,404,438,395,292,276,244,241,204,157,178,177,165,159,156,152,153,160,166,186,212,222,215,236,262,288,333,349,325,286,239,204,349,841,257,156,179,172,213,225,288,325,293,287,244,251,233,221,237,238,236,258,257,311,335,292,229,250,269,268,290,279,279,294,302,284,270,291,308,286,271,258,245,257,261,251,281,264,255,238,202,228,465,338,269,282,287,268,272,279,237,178,151,227,156,178,256,323,214,301,522,312,188,156,316,268,205,337,233,231,241,247,214,206,184,197,189,194,167,275,206,240,240,256,272,273,294,290,301,286,297,306,311,302,300
-152.899,235,216,238,229,273,230,181,183,196,195,236,213,236,219,209,205,183,186,193,191,211,245,265,284,284,291,296,278,253,282,323,333,412,459,337,304,344,345,349,355,368,302,254,229,230,230,222,201,227,247,210,209,209,206,229,288,298,255,247,265,236,221,182,186,176,169,232,291,277,249,271,306,245,261,259,181,130,161,165,168,184,175,167,166,180,185,192,203,202,185,216,230,236,238,240,225,213,194,226,296,255,114,105,156,184,220,244,313,298,313,276,382,593,2377,4065,2085,423,265,266,279,275,260,296,280,252,246,228,254,292,283,274,240,232,230,281,318,282,245,226,210,237,252,253,303,283,237,267,265,269,301,287,277,263,217,214,231,228,225,208,164,136,634,2305,2936,1338,716,1313,1077,447,205,214,193,185,227,214,216,236,245,251,238,233,220,222,252,274,274,263,255,257,232,265,268,284,268,271,268,232,554,332
-140.902,244,226,205,200,181,202,206,191,197,225,247,294,335,344,304,272,243,203,243,255,306,311,308,265,270,238,253,264,266,290,293,292,287,279,278,285,256,260,280,304,324,369,305,257,243,207,199,222,200,188,218,222,233,241,250,247,231,196,219,261,526,502,193,171,156,204,264,302,273,296,348,375,419,315,281,226,159,191,148,116,154,185,183,186,174,162,162,169,185,196,217,243,249,261,261,268,250,259,254,246,191,176,172,166,154,375,164,306,199,224,228,285,298,283,252,222,213,244,235,201,245,230,224,239,262,239,292,277,266,255,247,253,246,234,257,309,327,341,336,354,378,368,317,280,815,374,319,304,277,253,258,253,266,255,237,238,240,242,247,265,270,261,250,241,282,208,268,228,198,200,180,179,182,186,130,144,234,278,321,320,313,308,290,258,255,248,194,171,163,175,252,155,203,266,175,157,216,186,193
-128.906,352,309,242,239,240,237,262,225,239,244,248,241,222,226,249,243,227,255,268,262,231,224,213,199,228,247,297,308,309,310,316,283,246,242,228,228,225,199,187,315,317,341,294,316,379,310,210,197,200,201,199,213,232,209,217,224,245,231,237,214,226,354,505,265,260,252,242,251,232,282,299,268,277,275,257,301,294,268,265,262,237,174,148,164,168,155,166,159,159,175,180,199,210,228,237,214,219,218,229,211,205,184,185,225,246,263,258,290,233,207,299,285,298,270,249,186,91,73,253,256,261,312,286,302,285,294,281,325,316,318,212,338,352,381,441,482,524,544,517,482,464,406,376,291,300,287,311,312,314,301,283,255,257,263,294,372,341,294,282,274,218,223,252,303,333,312,281,271,251,236,273,299,329,359,386,339,400,332,535,1771,381,238,253,246,190,166,157,160,153,154,161,163,174,177,171,169,175,168,184
-116.909,320,287,270,264,305,296,280,287,292,272,219,217,193,207,222,223,247,268,243,252,247,232,225,226,212,248,260,282,271,258,260,281,286,264,245,249,227,248,241,238,240,233,221,241,254,260,211,196,217,215,205,198,222,211,228,253,290,334,278,274,300,306,304,296,274,228,226,214,233,257,283,285,295,284,282,254,247,259,271,250,231,168,183,139,156,125,157,175,192,213,203,209,204,203,196,205,228,233,262,254,265,259,251,295,270,262,274,391,272,807,449,240,198,213,205,186,199,200,282,281,273,253,235,236,243,280,252,251,266,296,325,384,393,401,375,444,428,402,405,349,334,299,291,314,304,280,289,284,308,336,322,326,308,278,303,325,297,286,290,341,402,414,447,410,386,387,384,427,499,555,509,546,481,418,386,381,407,387,315,217,223,247,249,221,172,147,169,184,196,222,235,243,247,205,197,180,165,162,177
-104.913,416,369,371,382,369,377,358,362,327,288,265,282,288,309,287,269,269,262,234,241,247,257,262,243,252,233,230,235,228,188,201,202,161,234,232,206,199,218,218,222,222,190,237,264,273,219,225,218,200,231,258,238,258,217,225,214,217,216,248,295,260,242,291,313,308,303,317,299,305,272,220,219,215,244,273,322,285,261,222,195,177,163,154,157,189,228,242,222,259,200,191,210,212,219,215,210,220,239,274,291,310,417,381,289,255,234,245,302,311,259,246,245,227,198,182,199,206,232,287,269,245,240,231,204,218,234,260,257,278,261,242,249,270,318,380,350,370,456,356,362,310,300,309,311,323,334,316,295,252,271,320,287,294,249,250,276,309,320,282,263,261,269,300,326,335,360,359,387,382,433,521,528,547,479,436,397,372,272,231,246,262,244,269,244,221,315,299,253,214,232,206,191,189,176,156,146,141,159,159
-92.9161,332,309,335,357,336,302,274,268,261,284,274,264,276,282,290,308,320,296,281,267,272,274,277,258,265,238,244,256,221,202,213,228,229,220,256,256,245,247,217,249,263,318,290,306,283,252,242,224,233,239,296,311,314,310,234,247,266,283,250,203,209,224,255,234,279,313,345,394,379,322,293,299,291,273,269,260,225,210,207,213,223,248,271,282,225,215,196,186,207,277,212,184,218,222,239,218,245,235,293,369,409,415,393,341,352,333,354,337,315,286,289,278,290,296,268,256,256,217,234,213,204,203,203,180,177,216,214,204,183,190,190,162,173,172,191,232,216,205,253,267,304,318,320,324,300,313,323,315,289,267,270,267,260,276,246,184,172,188,208,209,202,170,199,214,184,263,316,341,406,409,480,467,494,512,612,654,669,630,570,439,314,264,279,220,237,267,339,365,389,416,340,223,270,230,184,168,171,168,165
-80.9196,275,253,252,262,245,232,235,246,248,255,259,236,245,280,309,298,335,328,301,249,204,206,199,200,214,188,215,227,235,230,242,233,240,239,251,225,237,214,221,224,380,227,228,238,2884,509,654,450,445,291,269,247,240,287,298,254,215,144,266,362,324,255,256,300,309,342,392,410,369,458,426,407,360,353,451,424,430,401,405,378,312,306,291,278,265,271,269,249,225,264,260,271,291,321,324,312,340,299,334,339,349,317,392,384,429,317,270,284,267,291,280,285,288,307,307,297,303,281,298,253,239,233,232,265,277,293,285,269,253,195,276,266,264,228,230,192,203,172,219,246,275,288,299,277,292,297,285,306,285,274,273,309,395,365,344,287,389,225,196,189,243,209,259,231,263,286,333,333,311,300,296,317,378,433,460,477,420,399,409,389,345,271,287,306,278,325,352,351,347,469,472,507,424,414,347,233,188,170,176
-68.9231,201,181,186,174,212,210,216,223,223,236,222,229,221,211,228,232,246,260,267,263,261,227,219,227,249,242,246,218,205,189,218,246,241,242,226,258,298,312,251,260,250,260,256,289,300,334,328,322,296,294,220,186,161,171,218,255,265,248,253,261,343,391,369,323,326,299,299,307,318,328,348,343,339,329,296,268,313,330,356,394,428,437,384,374,753,417,438,440,422,388,377,348,345,348,351,340,322,328,339,329,269,222,224,216,260,233,226,243,254,255,296,335,402,499,432,334,298,251,277,309,323,354,354,412,356,341,397,393,369,290,283,253,272,270,300,313,305,295,277,282,259,251,251,288,308,326,347,309,265,262,246,248,258,271,290,266,214,186,177,194,220,201,209,250,277,298,307,335,253,200,196,176,246,294,298,329,354,401,438,380,331,320,328,363,391,405,420,418,443,442,425,336,285,286,237,205,204,198,201
-56.9266,228,214,217,207,201,223,218,228,223,229,234,216,218,212,251,252,235,235,241,263,261,267,268,237,224,223,245,244,236,233,233,220,218,230,260,191,233,247,235,232,280,333,334,312,309,299,259,222,245,414,274,285,254,234,199,192,188,268,269,305,272,290,286,310,347,387,378,338,334,334,303,281,259,279,265,288,296,270,250,295,350,313,255,240,250,247,265,266,263,256,273,298,290,329,344,408,397,410,369,342,278,269,283,247,278,270,221,225,276,380,421,377,369,423,475,537,496,473,415,421,442,474,446,387,328,313,235,243,304,333,301,235,151,215,278,329,340,315,299,332,326,293,281,298,288,232,248,286,274,272,287,284,320,308,332,331,311,312,283,282,246,237,259,292,325,298,267,593,223,166,147,188,209,189,230,220,208,218,232,240,277,302,372,411,489,507,473,568,589,517,537,563,591,601,589,530,478,469,373
-44.9301,334,312,283,263,263,259,263,248,264,230,257,251,257,243,236,255,268,264,253,253,255,274,293,262,266,236,229,260,286,226,243,236,242,269,310,328,292,274,318,329,385,383,347,353,315,310,275,218,243,268,284,300,236,192,193,239,193,246,242,269,276,302,310,367,623,701,561,438,395,430,433,410,409,422,402,383,373,355,341,334,331,334,292,289,248,245,237,228,264,262,300,313,315,302,284,253,266,249,264,291,262,251,266,265,278,267,262,258,264,253,267,262,248,259,307,362,386,353,266,686,937,650,1118,324,327,332,312,301,293,247,240,232,258,258,255,249,300,337,359,358,357,329,228,161,135,116,175,266,262,278,306,295,302,283,320,278,310,302,262,247,269,285,282,232,241,201,212,202,200,186,167,176,183,162,161,179,202,231,278,267,267,235,281,385,263,252,255,298,382,490,480,507,499,549,592,622,637,602,606
-32.9336,270,244,271,260,228,227,243,242,257,218,227,272,266,325,340,347,327,322,350,359,352,375,391,391,344,322,293,279,252,260,247,253,269,292,302,349,313,310,320,316,364,362,309,220,167,160,168,176,215,232,231,287,282,291,294,267,252,258,267,327,343,366,385,368,358,326,290,303,391,384,410,327,298,269,283,285,300,356,339,324,319,304,345,324,280,270,241,197,214,196,165,164,164,194,192,169,167,208,235,224,194,215,257,266,240,248,259,248,222,216,240,291,314,325,376,390,325,258,161,320,1090,836,320,306,300,243,261,267,295,267,278,279,263,281,271,262,249,239,281,264,270,248,269,266,274,301,358,372,383,332,362,381,346,301,357,373,330,284,263,208,247,262,300,265,257,229,210,209,279,253,254,189,247,272,271,218,173,192,177,183,174,179,158,215,220,237,239,288,283,215,229,221,222,260,300,328,361,334,290
-20.9371,304,259,267,256,234,209,232,261,297,317,320,368,366,412,491,497,437,440,394,333,289,272,234,241,278,266,257,279,295,320,303,312,293,300,277,266,257,256,262,195,126,86,89,79,71,110,161,241,288,307,341,351,306,287,288,265,264,270,285,298,274,261,253,251,252,240,263,279,305,307,318,308,302,281,238,251,255,277,259,229,219,256,251,248,248,251,212,212,178,176,161,167,179,191,193,233,215,168,221,241,229,226,212,224,232,235,242,276,315,306,271,247,223,249,316,366,331,322,357,365,362,358,365,375,432,422,417,389,387,351,269,252,283,357,356,293,298,293,289,360,323,311,300,304,307,245,301,331,352,398,350,330,311,363,385,408,402,365,313,248,242,248,271,256,310,399,283,220,243,238,190,149,150,136,138,142,149,196,178,186,286,244,211,208,251,216,218,242,246,242,263,252,225,273,262,263,293,256,246
-8.94054,381,333,335,326,309,315,343,386,400,473,386,366,351,320,310,303,305,330,306,313,313,336,318,335,315,294,304,313,307,270,280,255,218,212,189,220,185,174,163,138,134,118,125,111,148,196,245,282,325,359,346,344,293,269,255,264,281,280,301,286,294,323,354,341,341,312,275,235,239,275,265,276,249,229,203,190,208,229,259,251,260,248,261,251,234,260,278,268,288,280,266,256,340,479,794,881,568,257,229,226,227,235,237,266,304,273,263,268,269,290,277,317,330,343,344,330,341,344,385,367,337,337,347,377,410,437,417,342,375,328,307,285,284,309,304,262,251,274,305,317,348,385,425,465,396,380,345,339,359,372,371,353,395,415,363,307,322,352,371,331,320,281,273,262,231,164,161,165,140,129,117,133,137,161,152,141,149,204,217,182,203,197,185,196,219,229,280,368,413,364,347,336,274,186,169,163,155,151,152
3.05597,341,343,302,301,329,325,347,381,441,495,515,490,495,380,267,229,219,188,111,53,83,207,300,354,383,337,288,284,275,335,422,428,391,360,332,362,380,374,316,287,282,270,254,271,199,214,198,216,266,306,341,244,282,378,343,311,278,311,296,292,291,276,292,311,289,265,258,238,241,270,289,284,241,195,174,196,197,212,181,206,218,211,431,230,285,280,288,267,283,254,232,178,133,157,254,284,288,288,292,287,283,281,268,265,311,327,309,318,290,200,394,148,116,157,244,256,171,224,349,208,236,258,270,262,196,201,184,200,210,237,261,292,334,355,316,314,328,323,357,365,364,333,349,370,370,408,431,450,488,475,407,355,320,265,243,265,290,315,259,215,267,327,272,283,258,283,261,261,251,266,266,264,261,234,219,217,223,218,223,203,174,165,162,179,256,374,410,349,293,290,262,192,173,154,163,161,163,190,193
15.0525,445,428,452,431,426,424,413,380,421,495,550,707,880,603,344,284,249,223,234,268,277,298,299,272,265,251,233,229,237,282,336,299,213,243,293,311,286,270,278,264,260,289,290,381,351,235,209,245,221,216,199,183,220,239,234,264,279,296,335,357,378,431,479,510,437,440,362,296,290,312,359,343,325,336,337,276,231,200,181,170,198,172,201,223,289,253,301,332,291,256,249,280,332,424,388,343,300,280,303,320,303,277,261,249,253,249,299,303,311,406,371,343,294,275,306,258,321,432,488,457,437,437,413,424,403,360,342,346,336,310,318,290,291,312,341,317,322,342,455,426,414,460,497,449,392,375,412,459,435,470,492,426,460,458,384,338,272,211,199,209,251,263,288,268,263,303,366,351,365,355,285,257,250,283,244,223,226,220,222,239,245,282,260,245,253,247,234,208,215,180,164,163,160,154,154,144,144,148,166
27.049,667,634,598,540,491,535,477,436,479,372,342,304,249,284,306,306,242,251,255,283,289,315,285,284,260,281,291,246,265,268,312,355,384,369,287,244,234,234,236,202,218,202,189,158,116,211,249,282,297,358,329,336,343,297,245,178,121,204,252,260,269,251,248,248,355,333,326,330,281,314,275,326,309,316,265,266,242,198,206,190,204,258,293,268,294,308,299,320,338,338,386,342,415,471,384,366,372,351,342,319,275,245,250,294,358,366,315,320,317,353,306,341,393,436,502,520,569,444,404,374,420,406,427,453,520,390,339,314,305,295,297,300,317,325,324,346,334,304,347,432,432,499,523,504,458,427,359,367,391,448,386,385,421,431,366,330,266,274,305,308,271,275,262,262,300,312,287,305,314,343,306,284,295,259,312,218,193,248,239,272,292,340,416,373,304,214,199,204,215,218,208,173,174,149,138,131,152,178,213
39.0455,367,450,585,622,527,495,534,424,325,301,282,262,283,312,327,275,247,244,264,315,372,327,273,226,131,132,245,354,305,260,274,279,236,227,321,299,282,257,210,187,210,210,216,204,226,223,225,228,213,526,239,255,269,287,376,235,197,176,177,179,174,178,147,148,154,179,193,180,188,216,192,182,194,232,238,293,325,333,293,263,223,213,250,270,318,355,344,312,286,281,326,341,352,392,385,416,346,320,337,425,385,413,411,421,484,489,493,516,510,556,572,576,589,584,499,506,434,490,451,732,699,610,434,385,421,533,569,524,522,467,373,309,279,294,330,278,292,280,326,332,371,432,430,502,531,493,526,482,510,555,575,417,418,402,487,442,425,426,408,395,349,326,308,262,285,269,252,239,206,236,298,259,212,237,277,274,281,279,284,263,293,303,326,347,290,234,225,224,267,306,257,238,235,206,205,209,212,194,210
51.042,675,664,584,561,471,466,484,409,406,401,419,357,353,308,238,236,242,271,247,270,282,283,355,321,292,303,299,321,341,300,247,262,341,362,341,243,250,250,222,250,226,218,266,277,309,269,296,315,257,211,194,182,197,232,387,487,391,287,263,314,264,220,195,229,254,259,247,264,272,285,281,281,296,295,239,252,179,161,212,256,221,197,227,209,139,220,245,266,274,300,313,311,310,300,340,276,363,418,403,326,273,277,264,225,243,196,212,182,173,193,189,186,189,185,215,233,212,219,252,306,355,491,541,611,589,524,412,375,365,320,497,596,521,522,458,341,271,234,221,227,229,264,304,312,319,307,387,554,974,453,422,432,391,342,357,355,327,294,267,292,347,362,343,315,333,356,341,282,302,282,298,288,288,236,195,204,272,299,270,253,267,267,298,327,303,233,195,202,205,301,371,330,321,317,256,220,237,239,292
63.0385,552,545,469,479,403,356,341,353,354,318,293,324,300,272,294,336,309,309,350,386,398,411,372,294,277,296,333,345,394,436,456,503,483,495,450,345,372,339,322,273,285,272,320,365,317,352,361,342,334,319,266,274,267,373,472,484,470,449,359,264,208,193,186,183,196,217,225,246,270,236,203,183,192,229,301,326,292,214,128,163,239,229,219,187,256,273,320,365,335,324,334,357,426,464,380,291,273,329,312,274,240,209,202,223,263,296,279,243,208,196,194,191,162,147,186,168,183,204,222,233,244,273,280,298,298,369,414,440,472,568,524,466,359,328,432,540,467,374,321,325,298,299,259,279,257,269,271,248,267,282,328,425,447,431,403,399,339,304,268,279,302,296,293,321,334,412,409,396,367,341,425,441,365,259,247,250,268,248,273,289,272,250,242,213,241,194,168,192,241,273,264,327,281,281,293,286,244,250,260
75.035,327,332,314,306,338,319,333,348,324,321,318,278,274,267,258,278,286,299,331,347,307,325,359,388,386,347,342,365,394,394,394,401,434,470,345,308,305,265,210,194,262,255,313,356,427,390,318,287,276,255,253,304,348,388,354,277,206,185,166,199,180,165,176,206,224,259,276,289,252,196,169,151,134,149,176,220,207,298,379,384,399,376,317,289,284,271,220,356,270,269,337,364,275,194,207,233,256,251,254,227,216,198,183,136,119,116,112,127,145,131,125,125,118,125,134,158,193,232,250,269,284,280,251,234,240,262,282,291,317,383,348,361,455,482,342,345,395,443,480,426,440,432,351,240,234,234,230,245,216,214,231,277,308,409,382,340,345,340,317,300,275,268,306,303,303,276,271,272,285,265,226,228,213,212,207,206,190,230,244,272,293,322,393,348,251,231,238,248,240,241,252,302,227,172,179,272,267,277,271
87.0315,383,353,352,325,299,259,263,268,311,285,240,233,230,237,246,222,275,261,270,267,315,401,450,470,483,544,514,478,503,461,430,431,410,266,402,399,411,392,303,256,287,267,269,258,311,337,332,320,339,317,319,323,304,345,292,233,198,182,172,170,175,196,235,217,207,164,171,160,150,154,180,219,250,254,170,245,366,354,310,277,219,185,194,180,232,229,270,320,349,335,342,289,264,233,197,191,201,243,251,259,229,183,173,148,144,186,184,186,195,167,142,141,138,141,145,171,188,248,250,211,188,237,242,228,292,303,319,327,283,299,277,358,377,412,453,417,364,355,279,329,393,526,515,463,365,358,354,299,264,271,268,257,242,244,350,417,405,330,380,339,413,456,425,314,273,251,247,227,232,243,252,220,198,189,183,188,200,202,221,209,194,189,179,180,181,195,222,227,221,224,220,170,168,178,187,191,192,172,249
99.0281,576,467,484,462,389,416,419,441,396,319,330,296,279,297,342,390,336,395,450,392,389,394,359,409,439,440,432,456,468,473,526,605,604,619,628,544,459,406,437,355,321,293,250,251,284,329,322,299,338,353,346,320,344,369,416,442,407,377,331,324,309,298,302,279,249,197,202,300,341,330,321,294,264,247,200,176,179,150,151,147,150,173,185,196,219,194,175,166,172,180,201,187,175,176,173,160,170,277,267,268,223,173,167,170,316,251,207,248,250,262,249,319,308,338,363,398,353,343,818,772,491,340,283,275,335,253,262,249,295,344,318,331,324,363,394,448,399,388,479,580,551,412,280,265,339,393,405,313,228,119,105,189,284,354,349,293,279,272,257,242,230,253,258,322,325,299,260,287,328,345,300,237,209,176,169,143,151,162,169,171,194,253,278,278,234,180,174,138,144,147,162,141,190,189,165,186,196,224,213
111.025,744,615,608,559,519,502,496,487,419,327,332,338,342,395,392,418,394,375,347,370,343,359,370,343,324,341,415,381,317,294,335,329,327,347,359,364,370,391,423,400,365,328,328,320,325,300,327,341,363,352,340,331,330,329,340,327,316,319,312,311,317,297,296,277,251,257,272,271,322,336,305,234,214,188,213,199,197,228,254,221,223,229,229,242,279,204,193,856,437,300,341,313,253,244,191,178,181,295,345,321,366,437,380,289,265,169,163,139,154,136,131,147,129,123,145,168,156,158,153,155,208,267,290,268,277,232,232,273,249,176,186,182,180,170,218,244,286,368,408,468,446,424,432,476,451,490,429,383,306,325,288,274,271,263,405,572,586,532,557,557,419,378,334,257,231,316,480,517,450,391,210,149,139,140,138,130,118,117,114,121,152,181,162,141,147,152,158,155,222,305,336,304,289,236,196,183,163,138,131
123.021,610,498,448,412,357,350,343,326,352,338,315,299,308,284,272,294,310,365,349,370,423,487,533,593,691,647,532,431,521,490,477,431,437,452,449,412,416,381,350,359,352,355,337,325,275,280,278,310,367,378,400,396,399,399,356,344,320,260,293,349,324,311,305,329,308,279,254,258,281,354,417,485,453,436,417,333,319,255,239,206,206,193,214,240,245,233,218,230,275,322,332,314,286,260,205,205,294,284,310,371,370,290,237,199,193,179,153,150,138,135,134,106,100,108,110,170,139,126,144,138,131,132,145,156,169,173,159,163,164,188,168,175,162,137,151,158,164,227,244,248,324,337,344,354,343,285,243,255,229,247,208,180,174,166,154,175,178,231,363,560,616,692,717,555,443,303,323,369,521,620,498,396,319,355,320,233,180,182,166,164,148,183,200,179,182,271,296,345,377,404,416,472,522,539,466,457,454,435,360
135.018,444,412,282,228,176,241,229,200,222,248,279,278,262,205,214,240,225,271,328,421,449,513,475,460,470,522,522,555,551,598,631,507,387,428,378,357,355,339,370,350,367,370,364,319,266,275,266,249,260,240,233,221,214,219,225,220,213,195,246,280,320,342,384,444,318,248,239,258,304,425,524,569,576,549,457,413,436,424,373,374,286,218,211,204,192,205,222,222,217,249,224,197,177,163,173,200,263,291,337,436,458,343,256,215,172,142,147,149,137,132,153,135,116,105,115,110,111,109,110,117,95,119,113,113,138,134,123,123,115,120,141,162,171,185,167,231,243,247,254,224,207,183,197,196,203,192,204,202,187,169,150,138,123,127,133,112,117,122,127,130,128,115,116,395,414,424,373,312,236,246,278,313,343,376,344,264,249,250,243,250,288,260,249,245,286,281,277,272,277,210,215,202,202,243,352,516,510,518,533
147.014,337,305,287,260,194,189,210,191,209,202,214,226,242,256,239,276,282,305,370,462,514,550,610,636,628,713,620,558,488,385,370,365,368,370,397,372,290,298,313,356,351,316,374,419,355,299,279,264,252,262,217,233,231,230,236,242,222,244,311,383,364,374,370,330,299,249,275,292,335,445,516,550,638,639,737,700,543,606,526,438,340,329,282,218,153,168,159,143,125,116,112,124,127,127,135,149,177,178,245,413,504,523,519,440,384,389,378,264,188,150,122,120,118,121,110,101,108,116,111,122,122,128,132,135,126,144,158,182,221,229,221,217,201,186,169,163,146,144,122,128,177,203,253,300,221,238,224,214,358,182,166,139,136,134,121,129,145,158,190,239,231,225,215,230,251,240,227,278,389,1128,5873,6800,4728,1561,816,719,567,395,330,493,589,664,569,496,444,452,463,473,482,421,451,521,481,491,467,553,512,523,551
159.011,288,249,295,313,317,263,244,269,314,309,289,296,294,312,334,375,403,426,452,456,451,483,475,489,524,425,358,309,400,370,370,354,373,375,474,418,342,352,329,316,259,258,275,296,357,324,329,271,286,285,280,320,320,317,285,309,350,407,421,395,414,395,357,266,262,336,313,308,410,548,615,617,557,617,759,740,742,680,590,519,385,348,313,263,200,183,171,165,135,127,115,129,142,144,137,155,147,169,179,187,191,272,314,320,334,298,258,234,234,255,248,242,229,213,226,233,224,207,224,259,275,268,271,236,173,147,130,123,116,137,166,167,152,173,208,162,146,151,171,193,179,194,211,265,304,213,323,215,202,207,166,169,192,175,196,202,238,290,266,286,320,329,314,240,196,205,286,532,893,853,787,682,675,364,368,357,390,382,419,575,574,788,1000,1225,969,966,815,674,611,512,459,388,364,347,330,351,341,324,336
171.007,339,332,315,304,286,283,282,316,338,375,393,319,336,264,297,290,272,234,282,285,363,345,415,408,345,376,443,440,540,576,546,501,418,290,195,370,509,591,562,452,340,296,264,325,302,312,336,335,328,394,412,425,349,272,316,267,315,363,344,369,361,395,425,448,351,300,337,325,377,356,419,448,533,530,415,400,453,511,629,788,792,760,690,582,469,330,319,290,223,186,192,182,181,187,210,191,184,229,335,363,416,394,354,347,344,285,274,229,245,201,164,171,183,173,255,310,296,247,188,173,153,134,126,117,132,144,150,134,126,153,173,159,225,259,2295,529,782,464,416,457,500,361,353,420,487,449,485,476,484,523,414,278,277,293,354,475,466,369,308,339,345,323,279,246,217,223,338,318,333,321,283,413,413,417,342,365,335,381,420,470,505,495,467,464,380,398,392,343,395,362,330,324,353,345,365,346,320,260,245
183.004,301,295,276,264,247,265,249,255,258,274,274,273,300,321,416,351,274,254,274,297,322,363,401,435,421,426,438,458,531,549,558,488,441,435,383,366,349,383,406,386,369,327,302,316,350,336,361,365,386,406,394,381,403,436,444,436,376,296,297,365,380,418,433,368,332,346,321,277,288,286,279,317,274,231,372,533,627,622,549,483,389,390,548,670,669,642,520,394,341,320,315,317,316,298,433,505,545,545,562,574,594,663,700,782,780,802,700,618,498,536,386,323,322,272,197,137,126,131,115,115,116,93,100,115,137,149,248,277,190,220,255,291,228,226,230,278,374,436,524,598,657,610,550,577,529,518,536,565,634,657,586,426,444,431,438,374,379,397,404,422,432,425,420,407,384,352,324,298,255,251,288,310,375,378,407,412,469,432,455,443,342,319,322,292,320,346,341,322,310,301,263,282,310,359,367,335,351,336,336
195,281,236,225,261,269,294,253,289,295,298,312,319,298,313,281,280,266,271,264,274,280,328,350,373,397,407,431,420,416,444,415,388,336,322,304,303,295,293,273,256,240,242,230,222,217,205,249,236,234,204,212,234,226,248,268,261,256,265,298,292,304,327,328,326,277,227,214,212,274,307,299,270,284,290,284,274,270,316,319,318,272,276,273,271,266,252,287,322,293,272,312,386,490,579,604,510,385,391,468,480,470,622,806,906,834,587,402,344,417,467,441,303,348,371,274,194,148,134,130,128,113,120,121,129,180,213,205,196,195,205,220,265,307,364,415,446,440,436,485,600,728,708,765,768,578,435,368,354,354,390,431,390,368,378,432,490,473,440,452,531,528,592,581,620,468,247,219,243,238,250,300,334,337,292,289,264,314,293,278,279,275,331,312,400,376,355,342,300,306,316,389,368,315,374,330,313,305,271,300
206.997,296,271,258,251,254,252,263,277,283,234,287,322,337,371,370,355,369,400,376,339,300,288,262,297,303,295,301,295,296,320,337,324,324,313,330,329,332,316,315,290,315,302,325,300,302,269,265,264,276,275,270,267,247,261,253,249,231,240,238,255,239,252,251,240,251,263,232,253,271,300,302,269,260,280,330,301,276,294,321,333,251,222,228,232,235,410,461,270,276,240,262,224,193,255,348,437,433,472,507,548,621,752,823,891,531,472,556,692,870,764,544,402,383,472,490,512,394,373,336,197,214,208,251,198,232,224,232,203,214,266,321,379,382,371,295,276,348,350,359,273,258,219,194,207,249,262,263,296,257,285,272,274,297,292,315,380,331,302,284,325,372,325,328,276,247,258,219,170,184,164,178,182,186,258,159,171,174,202,217,285,323,360,399,435,404,430,367,340,323,357,425,379,358,346,306,326,313,317,324
218.993,694,472,294,245,251,219,217,243,273,246,241,227,216,195,224,216,224,198,186,200,247,245,253,253,252,269,272,248,238,269,295,353,362,372,363,388,336,364,319,283,233,198,214,263,268,280,314,310,291,318,330,305,314,325,319,305,301,302,318,305,289,294,271,643,276,192,237,293,320,338,314,249,209,207,192,264,268,266,270,308,349,383,366,399,376,352,322,323,340,320,369,336,350,349,426,466,513,606,685,786,753,678,650,562,665,678,716,912,1042,1156,1081,896,751,662,618,621,526,459,466,410,401,358,354,328,276,240,235,219,230,256,267,277,288,310,273,285,232,224,224,192,171,202,149,254,224,261,226,240,229,252,288,308,343,355,260,225,209,183,161,148,137,130,125,111,107,95,80,83,90,96,101,106,136,173,458,1038,670,279,219,194,241,259,311,321,283,271,268,272,262,270,293,296,304,292,330,348,364,347,369
230.99,287,257,1051,2626,1377,280,489,335,621,666,816,571,424,328,478,565,678,850,510,490,705,871,1147,542,507,423,538,468,614,338,618,481,373,258,354,577,605,2059,7160,5641,6225,5393,7967,1791,768,435,254,233,263,258,240,243,244,224,219,211,232,243,249,315,340,312,310,268,245,232,212,248,238,223,235,263,285,280,273,272,287,326,312,296,248,254,280,302,347,370,319,334,366,315,318,331,361,355,397,341,338,278,288,304,347,412,544,603,905,947,743,727,681,728,743,726,771,753,895,915,739,565,459,357,331,273,252,290,247,242,279,282,286,286,255,247,267,345,427,415,355,306,308,258,237,233,229,216,192,195,221,253,322,272,269,274,258,248,304,343,345,358,385,397,352,285,235,176,153,130,118,112,120,128,164,180,336,712,3371,4254,2857,1463,730,615,346,237,247,200,184,195,187,172,198,220,203,208,216,206,236,256,319,293,317
242.986,293,265,237,232,233,197,185,210,538,461,343,251,219,217,519,1115,3681,4918,5874,4976,2729,4026,3527,1210,1287,818,389,231,524,222,200,192,186,204,208,797,1285,2820,4634,6759,755,279,286,257,276,308,325,307,336,319,307,298,289,317,296,278,258,264,266,275,277,266,267,293,328,278,352,230,280,292,269,261,273,282,311,307,282,275,286,308,343,356,363,402,420,351,320,310,319,335,302,344,319,285,281,280,308,312,359,406,442,435,406,451,507,546,510,508,576,614,551,505,569,544,451,448,412,396,341,328,312,297,283,312,321,323,315,287,303,310,343,349,323,325,332,316,293,294,313,329,318,325,313,260,246,275,349,407,457,941,1785,3708,3634,4014,2092,453,285,260,230,204,179,173,160,169,145,151,251,284,210,156,130,115,113,111,115,148,280,526,696,384,230,184,173,187,164,152,160,179,160,172,180,172,177,164,180,221,209,233,304
254.983,280,270,260,230,233,250,256,249,254,263,270,248,253,239,227,261,245,221,223,247,250,255,241,250,243,260,236,243,261,255,250,241,239,259,457,1479,2679,3835,1443,489,432,303,278,251,226,270,257,261,267,289,303,292,261,250,257,285,318,311,327,327,316,316,304,300,307,304,292,283,301,307,334,306,301,307,278,239,253,246,292,306,332,308,308,319,334,329,334,348,353,383,369,343,353,333,312,328,305,300,311,301,302,317,313,317,343,396,425,466,441,477,535,530,587,559,390,352,377,349,351,372,341,355,368,403,458,472,471,447,438,373,398,383,406,408,449,434,404,352,336,336,329,305,276,352,636,620,1160,2793,5362,5549,4715,2794,1573,802,213,163,165,159,177,171,181,207,218,209,178,150,125,127,134,141,150,192,217,208,192,165,177,170,180,169,213,176,161,156,159,183,169,193,200,175,141,155,178,188,289,336,330,337,364
266.979,331,304,264,279,291,263,256,251,275,249,250,252,224,197,170,174,173,220,255,285,299,298,296,280,305,320,280,249,251,242,232,225,264,300,256,816,4271,7664,2245,823,651,558,217,248,263,261,275,281,295,271,277,307,295,319,330,310,295,348,341,300,307,327,334,359,326,299,299,293,313,306,330,325,251,286,288,276,248,295,345,525,623,549,390,322,321,347,375,372,375,347,378,380,407,429,406,468,498,486,493,438,400,335,325,303,289,298,333,391,398,357,316,301,324,356,359,395,448,429,384,358,419,456,495,430,408,443,519,570,591,585,549,573,555,559,567,498,439,394,336,296,270,269,267,794,1169,3580,3025,4225,1144,710,501,486,370,454,690,660,425,329,336,313,298,289,288,272,232,181,186,202,193,198,228,254,262,263,248,216,219,244,261,270,266,288,318,306,315,307,299,274,269,261,288,308,327,340,319,383,430,468,512
278.976,398,365,351,389,414,364,334,332,355,350,281,292,272,294,299,297,283,265,292,284,258,263,280,264,235,236,237,220,198,156,164,189,242,350,1146,3099,5679,3637,1028,241,198,217,237,248,263,289,287,303,337,311,366,388,394,397,416,445,438,383,346,316,301,311,311,314,347,324,310,308,331,297,287,285,321,355,328,338,366,344,355,299,257,319,344,357,354,402,395,436,388,462,479,543,602,543,545,502,502,455,418,340,302,291,292,374,413,443,458,420,366,440,429,442,442,558,381,365,301,287,261,257,300,313,322,316,354,429,455,421,435,459,463,463,429,433,423,442,447,452,477,434,382,306,427,651,1313,2324,1681,804,497,333,254,245,309,407,352,385,444,734,790,490,399,342,329,338,339,321,289,327,378,414,437,467,486,557,560,587,636,584,631,632,636,643,651,613,620,614,611,575,599,601,564,570,507,417,408,422,353,347,353
290.972,472,408,401,373,364,374,389,338,311,295,279,265,251,302,304,262,246,190,212,238,222,228,251,235,230,234,217,275,295,307,254,402,1609,1545,4431,1315,2294,3543,974,630,283,323,314,323,392,340,363,353,381,434,437,429,385,375,398,450,466,466,515,479,494,412,343,372,416,408,355,335,334,360,407,438,431,392,351,430,401,464,467,439,403,353,322,300,318,329,323,319,334,394,393,365,377,423,414,355,352,378,416,469,425,424,415,395,332,388,401,391,447,456,313,330,329,327,368,372,322,334,314,305,332,337,376,363,331,301,282,300,357,381,354,343,376,424,458,435,360,321,346,344,325,320,391,455,892,1005,1166,1019,692,717,395,324,373,410,404,442,457,517,589,592,546,483,516,627,648,580,602,539,422,399,349,363,423,416,386,381,373,331,383,426,338,325,328,279,292,269,270,283,323,374,450,485,448,419,367,316,371,389,378
302.969,271,210,176,244,133,113,102,263,107,118,120,140,164,267,252,221,243,232,265,275,276,241,305,301,313,334,287,243,209,215,189,175,232,338,293,293,320,287,296,344,334,338,339,347,353,360,386,402,412,419,405,417,408,378,368,412,520,588,519,465,420,451,410,389,446,488,500,407,454,416,383,379,396,389,410,349,334,297,357,523,585,1718,2928,1338,473,306,314,335,343,396,392,362,353,330,325,290,347,276,299,309,314,318,320,322,424,480,426,374,348,345,347,352,337,330,337,342,332,342,349,328,301,304,313,311,326,330,359,417,409,330,319,321,330,442,567,651,583,519,366,330,424,997,1687,2930,5714,6632,7660,6246,4094,1177,348,362,370,382,446,513,521,540,569,547,530,501,470,400,302,308,279,295,332,343,362,313,317,302,273,234,248,260,278,309,377,397,344,328,305,309,300,300,300,296,351,360,332,322,306,295,308,316,346
314.965,377,355,347,323,255,249,272,278,259,295,319,353,356,346,321,312,278,221,520,197,513,219,168,187,181,182,250,249,292,283,337,327,298,400,442,429,419,407,369,365,357,350,334,329,355,429,373,347,372,378,386,403,406,425,408,422,483,543,539,614,628,599,523,491,440,384,364,325,297,317,258,249,218,241,198,114,126,213,249,260,292,299,292,293,310,327,356,373,448,470,414,441,427,418,396,391,365,351,318,335,359,382,399,439,435,437,403,373,372,399,428,433,393,340,309,321,317,295,303,361,400,459,565,563,397,320,332,330,338,324,355,362,353,386,360,336,319,266,237,274,319,322,418,1412,1192,2280,3375,2717,2421,1556,504,382,375,375,406,424,393,417,375,317,281,271,279,264,285,298,304,292,311,368,386,373,376,357,317,271,262,265,248,240,283,314,333,338,347,369,391,412,431,412,392,421,380,301,280,298,322,337,395
326.962,388,310,288,291,294,298,295,274,251,277,233,213,267,324,310,328,293,279,252,322,359,407,385,362,344,351,365,296,215,168,219,1084,836,263,272,269,309,347,361,416,399,419,407,399,425,423,437,396,390,392,395,411,407,353,453,443,455,470,515,435,426,417,389,380,363,362,300,283,343,282,322,283,232,247,219,133,104,229,324,379,444,503,427,434,388,365,340,373,363,365,388,350,400,461,464,468,433,416,436,452,563,637,641,666,564,423,415,329,344,357,318,320,292,269,253,252,283,266,229,199,191,242,306,362,322,315,301,298,290,294,322,303,282,278,278,284,306,284,305,304,314,296,289,319,317,550,598,334,378,389,383,351,326,314,306,307,284,254,257,260,227,180,260,260,268,274,283,271,320,359,355,310,278,259,259,280,284,316,365,342,346,333,308,305,321,342,333,327,255,249,251,245,263,298,357,358,395,441,432
328.961,388,320,304,303,315,300,281,263,237,242,228,226,274,302,303,318,307,292,246,336,394,381,355,333,352,364,346,303,268,309,746,831,267,247,245,267,297,291,342,365,375,417,394,401,397,405,415,416,423,402,357,385,443,373,412,485,493,508,507,478,450,457,408,335,325,332,303,274,340,328,321,278,263,247,231,181,129,252,354,417,448,491,426,381,363,336,363,373,352,374,356,339,355,386,410,437,431,391,420,522,502,550,599,482,378,367,355,319,322,328,349,320,310,252,230,232,243,248,270,234,213,273,317,347,322,297,295,296,321,314,285,291,288,261,280,283,296,295,322,334,298,293,285,327,370,1284,570,363,390,394,361,338,329,340,330,297,279,277,271,256,237,227,247,245,269,290,283,304,339,357,355,309,263,261,271,279,319,336,361,324,298,280,309,343,396,431,398,333,285,276,244,254,279,277,304,334,381,417,413